{
  "resourceType": "Bundle",
  "fhir_comments": [
    "Collection of resources pertaining to the PCT GFE"
  ],
  "meta": {
    "versionId": "1",
    "lastUpdated": "2021-09-16T12:41:06.458+00:00"
  },
  "identifier": {
    "system": "http://example.org/documentIDs",
    "value": "A12345"
  },
  "type": "collection",
  "timestamp": "2019-08-21T11:01:00+05:00",
  "entry": [
      {
        "fullUrl": "http://example.org/fhir/Claim/PCT-Good-Faith-Estimate-1",
        "resource": {
            "resourceType": "Claim",
            "id": "PCT-Good-Faith-Estimate-1",
            "meta": {
              "profile": [
                "http://hl7.org/fhir/us/davinci-pct/StructureDefinition/davinci-pct-gfe"
              ]
            },
            "text": {
              "status": "extensions",
              "div": "<div xmlns=\"http://www.w3.org/1999/xhtml\"><p><b>Generated Narrative</b></p><p><b>GFESubmitter</b>: <a href=\"Organization-Submitter-Org-1.html\">Generated Summary: id: ETIN-10010001; active: true; <span title=\"Codes: \">Institutional GFE Submitter</span>; name: GFE Service Help INC.</a></p><p><b>GFEAssignedServiceIdentifier</b>: id: GFEAssignedServiceID0001</p><p><b>InterTransIdentifier</b>: id: InterTransID0001</p><p><b>status</b>: active</p><p><b>type</b>: <span title=\"Codes: {http://terminology.hl7.org/CodeSystem/claim-type institutional}\">Institutional</span></p><p><b>use</b>: claim</p><p><b>patient</b>: <a href=\"Patient-patient1001.html\">Generated Summary: MB: 12345; Eve Betterhalf; Phone: 781-949-4949; gender: female; birthDate: 1955-07-23; <span title=\"Codes: {http://terminology.hl7.org/CodeSystem/v3-MaritalStatus U}\">unmarried</span></a></p><p><b>created</b>: 2021-10-05</p><p><b>insurer</b>: <a href=\"Organization-org1001.html\">Generated Summary: id: ETIN-1001001; active: true; <span title=\"Codes: \">Payer</span>; name: Umbrella Insurance Company; Phone: 860-547-5001</a></p><p><b>provider</b>: <a href=\"PractitionerRole-pracRole002.html\">Generated Summary: active: true; <span title=\"Codes: {http://nucc.org/provider-taxonomy 247100000X}\">Radiologic Technologist</span>; <span title=\"Codes: {http://nucc.org/provider-taxonomy 261QM1200X}\">Magnetic Resonance Imaging (MRI)</span></a></p><p><b>priority</b>: <span title=\"Codes: \">normal</span></p><h3>Payees</h3><table class=\"grid\"><tr><td>-</td><td><b>Type</b></td></tr><tr><td>*</td><td><span title=\"Codes: \">provider</span></td></tr></table><h3>Diagnoses</h3><table class=\"grid\"><tr><td>-</td><td><b>Sequence</b></td><td><b>Diagnosis[x]</b></td><td><b>Type</b></td><td><b>PackageCode</b></td></tr><tr><td>*</td><td>1</td><td><span title=\"Codes: {http://hl7.org/fhir/sid/icd-10-cm S06.3}\">Focal traumatic brain injury</span></td><td><span title=\"Codes: \">principal</span></td><td><span title=\"Codes: {http://terminology.hl7.org/CodeSystem/ex-diagnosisrelatedgroup 400}\">Head trauma - concussion</span></td></tr></table><h3>Insurances</h3><table class=\"grid\"><tr><td>-</td><td><b>Sequence</b></td><td><b>Focal</b></td><td><b>Coverage</b></td></tr><tr><td>*</td><td>1</td><td>true</td><td><a href=\"Coverage-coverage1001.html\">Generated Summary: status: active; subscriberId: PFP123450000; period: 2021-01-01 --&gt; 2022-01-01</a></td></tr></table><blockquote><p><b>item</b></p><p><b>EstimatedDateOfService</b>: 2021-10-31</p><p><b>sequence</b>: 1</p><p><b>revenue</b>: <span title=\"Codes: {https://www.nubc.org/CodeSystem/RevenueCodes 1212}\">Some revenue code description</span></p><p><b>productOrService</b>: <span title=\"Codes: {http://www.ama-assn.org/go/cpt 71010}\">Some CPT code description</span></p><p><b>modifier</b>: <span title=\"Codes: {http://www.ama-assn.org/go/cpt 71020}\">Some CPT code description</span></p></blockquote></div>"
            },
            "extension": [
              {
                "url": "http://hl7.org/fhir/us/davinci-pct/StructureDefinition/gfeSubmitter",
                "valueReference": {
                  "reference": "Organization/Submitter-Org-1"
                }
              },
              {
                "url": "http://hl7.org/fhir/us/davinci-pct/StructureDefinition/gfeAssignedServiceIdentifier",
                "valueIdentifier": {
                  "value": "GFEAssignedServiceID0001"
                }
              },
              {
                "url": "http://hl7.org/fhir/us/davinci-pct/StructureDefinition/interTransIdentifier",
                "valueIdentifier": {
                  "value": "InterTransID0001"
                }
              }
            ],
            "status": "active",
            "type": {
              "coding": [
                {
                  "system": "http://terminology.hl7.org/CodeSystem/claim-type",
                  "code": "institutional",
                  "display": "Institutional"
                }
              ]
            },
            "use": "claim",
            "patient": {
              "reference": "Patient/patient1001"
            },
            "created": "2021-10-05",
            "insurer": {
              "reference": "Organization/org1001"
            },
            "provider": {
              "reference": "PractitionerRole/pracRole002"
            },
            "priority": {
              "coding": [
                {
                  "code": "normal"
                }
              ]
            },
            "payee": {
              "type": {
                "coding": [
                  {
                    "code": "provider"
                  }
                ]
              }
            },
            "diagnosis": [
              {
                "sequence": 1,
                "diagnosisCodeableConcept": {
                  "coding": [
                    {
                      "system": "http://hl7.org/fhir/sid/icd-10-cm",
                      "code": "S06.3",
                      "display": "Focal traumatic brain injury"
                    }
                  ]
                },
                "type": [
                  {
                    "coding": [
                      {
                        "code": "principal"
                      }
                    ]
                  }
                ],
                "packageCode": {
                  "coding": [
                    {
                      "system": "http://terminology.hl7.org/CodeSystem/ex-diagnosisrelatedgroup",
                      "code": "400",
                      "display": "Head trauma - concussion"
                    }
                  ]
                }
              }
            ],
            "insurance": [
              {
                "sequence": 1,
                "focal": true,
                "coverage": {
                  "reference": "Coverage/coverage1001"
                }
              }
            ],
            "item": [
              {
                "extension": [
                  {
                    "url": "http://hl7.org/fhir/us/davinci-pct/StructureDefinition/estimatedDateOfService",
                    "valueDate": "2021-10-31"
                  }
                ],
                "sequence": 1,
                "revenue": {
                  "coding": [
                    {
                      "system": "https://www.nubc.org/CodeSystem/RevenueCodes",
                      "code": "1212",
                      "display": "Some revenue code description"
                    }
                  ]
                },
                "productOrService": {
                  "coding": [
                    {
                      "system": "http://www.ama-assn.org/go/cpt",
                      "code": "71010",
                      "display": "Some CPT code description"
                    }
                  ]
                },
                "modifier": [
                  {
                    "coding": [
                      {
                        "system": "http://www.ama-assn.org/go/cpt",
                        "code": "71020",
                        "display": "Some CPT code description"
                      }
                    ]
                  }
                ],
                "net": {
                  "value": 200,
                  "currency": "USD"
                }
              }
            ],
            "total": {
              "value": 200,
              "currency": "USD"
            }
          }
        },
      {
        "fullUrl": "http://example.org/fhir/Patient/patient1001",
        "resource": {
            "resourceType": "Patient",
            "id": "patient1001",
            "text": {
              "status": "generated",
              "div": "<div xmlns=\"http://www.w3.org/1999/xhtml\"><p><b>Generated Narrative</b></p><p><b>identifier</b>: MB: 12345</p><p><b>name</b>: Eve Betterhalf</p><p><b>telecom</b>: ph: 781-949-4949(MOBILE)</p><p><b>gender</b>: female</p><p><b>birthDate</b>: 1955-07-23</p><p><b>address</b>: 222 Burlington Road, Bedford MA 01730</p><p><b>maritalStatus</b>: <span title=\"Codes: {http://terminology.hl7.org/CodeSystem/v3-MaritalStatus U}\">unmarried</span></p><h3>Communications</h3><table class=\"grid\"><tr><td>-</td><td><b>Language</b></td><td><b>Preferred</b></td></tr><tr><td>*</td><td><span title=\"Codes: {urn:ietf:bcp:47 en-US}\">English (United States)</span></td><td>true</td></tr></table></div>"
            },
            "identifier": [
              {
                "type": {
                  "coding": [
                    {
                      "code": "MB"
                    }
                  ]
                },
                "system": "http://www.acme.com/identifiers/patient",
                "value": "12345"
              }
            ],
            "name": [
              {
                "text": "Eve Betterhalf",
                "family": "Betterhalf",
                "given": [
                  "Eve"
                ]
              }
            ],
            "telecom": [
              {
                "system": "phone",
                "value": "781-949-4949",
                "use": "mobile"
              }
            ],
            "gender": "female",
            "birthDate": "1955-07-23",
            "address": [
              {
                "text": "222 Burlington Road, Bedford MA 01730"
              }
            ],
            "maritalStatus": {
              "coding": [
                {
                  "system": "http://terminology.hl7.org/CodeSystem/v3-MaritalStatus",
                  "code": "U",
                  "display": "unmarried"
                }
              ]
            },
            "communication": [
              {
                "language": {
                  "coding": [
                    {
                      "system": "urn:ietf:bcp:47",
                      "code": "en-US",
                      "display": "English (United States)"
                    }
                  ]
                },
                "preferred": true
              }
            ]
          }
      },
      {
        "fullUrl": "http://example.org/fhir/Organization/Submitter-Org-1",
        "resource": {
          "resourceType": "Organization",
          "id": "Submitter-Org-1",
          "meta": {
            "profile": [
              "http://hl7.org/fhir/us/davinci-pct/StructureDefinition/davinci-pct-organization"
            ]
          },
          "text": {
            "status": "generated",
            "div": "<div xmlns=\"http://www.w3.org/1999/xhtml\"><p><b>Generated Narrative</b></p><p><b>identifier</b>: id: ETIN-10010001</p><p><b>active</b>: true</p><p><b>type</b>: <span title=\"Codes: \">Institutional GFE Submitter</span></p><p><b>name</b>: GFE Service Help INC.</p></div>"
          },
          "identifier": [
            {
              "value": "ETIN-10010001"
            }
          ],
          "active": true,
          "type": [
            {
              "coding": [
                {
                  "code": "Institutional-submitter",
                  "display": "Institutional GFE Submitter"
                }
              ]
            }
          ],
          "name": "GFE Service Help INC."
        }
      },
      {
        "fullUrl": "http://example.org/fhir/Organization/org1001",
        "resource": {
          "resourceType": "Organization",
          "id": "org1001",
          "meta": {
            "profile": [
              "http://hl7.org/fhir/us/davinci-pct/StructureDefinition/davinci-pct-organization"
            ]
          },
          "text": {
            "status": "generated",
            "div": "<div xmlns=\"http://www.w3.org/1999/xhtml\"><p><b>Generated Narrative</b></p><p><b>identifier</b>: id: ETIN-1001001</p><p><b>active</b>: true</p><p><b>type</b>: <span title=\"Codes: \">Payer</span></p><p><b>name</b>: Umbrella Insurance Company</p><p><b>telecom</b>: ph: 860-547-5001(WORK)</p><p><b>address</b>: 680 Asylum Street Hartford CT 06155 USA </p></div>"
          },
          "identifier": [
            {
              "value": "ETIN-1001001"
            }
          ],
          "active": true,
          "type": [
            {
              "coding": [
                {
                  "code": "pay",
                  "display": "Payer"
                }
              ]
            }
          ],
          "name": "Umbrella Insurance Company",
          "telecom": [
            {
              "system": "phone",
              "value": "860-547-5001",
              "use": "work"
            }
          ],
          "address": [
            {
              "extension": [
                {
                  "url": "http://hl7.org/fhir/us/davinci-pct/StructureDefinition/countrySubdivisionCode",
                  "valueString": "US-CT"
                }
              ],
              "line": [
                "680 Asylum Street"
              ],
              "city": "Hartford",
              "state": "CT",
              "postalCode": "06155",
              "country": "USA"
            }
          ]
        }
      },
      {
        "fullUrl": "http://example.org/fhir/PractitionerRole/pracRole002",
        "resource": {
            "resourceType": "PractitionerRole",
            "id": "pracRole002",
            "text": {
              "status": "generated",
              "div": "<div xmlns=\"http://www.w3.org/1999/xhtml\"><p><b>Generated Narrative</b></p><p><b>active</b>: true</p><p><b>practitioner</b>: <a href=\"Practitioner-prac002.html\">Generated Summary: id: 1234567893; active: true; Christine Curie; Phone: 781-232-3232; gender: female</a></p><p><b>organization</b>: <a href=\"Organization-org1002.html\">Generated Summary: Tax ID number: TAX-1001001; active: true; <span title=\"Codes: \">Healthcare Provider</span>; name: Boston Radiology Center; Phone: 781-232-3200</a></p><p><b>code</b>: <span title=\"Codes: {http://nucc.org/provider-taxonomy 247100000X}\">Radiologic Technologist</span></p><p><b>specialty</b>: <span title=\"Codes: {http://nucc.org/provider-taxonomy 261QM1200X}\">Magnetic Resonance Imaging (MRI)</span></p><p><b>location</b>: <a href=\"Location-Provider-Org-Loc-1.html\">Generated Summary: status: active; name: Boston Radiology Center</a></p></div>"
            },
            "active": true,
            "practitioner": {
              "reference": "Practitioner/prac002"
            },
            "organization": {
              "reference": "Organization/org1002"
            },
            "code": [
              {
                "coding": [
                  {
                    "system": "http://nucc.org/provider-taxonomy",
                    "code": "247100000X",
                    "display": "Radiologic Technologist"
                  }
                ]
              }
            ],
            "specialty": [
              {
                "coding": [
                  {
                    "system": "http://nucc.org/provider-taxonomy",
                    "code": "261QM1200X",
                    "display": "Magnetic Resonance Imaging (MRI)"
                  }
                ]
              }
            ],
            "location": [
              {
                "reference": "Location/Provider-Org-Loc-1"
              }
            ]
          }
      },
      {
        "fullUrl": "http://example.org/fhir/Coverage/coverage1001",
        "resource": {
          "resourceType": "Coverage",
          "id": "coverage1001",
          "text": {
            "status": "generated",
            "div": "<div xmlns=\"http://www.w3.org/1999/xhtml\"><p><b>Generated Narrative</b></p><p><b>status</b>: active</p><p><b>subscriber</b>: <a href=\"Patient-patient1001.html\">Generated Summary: MB: 12345; Eve Betterhalf; Phone: 781-949-4949; gender: female; birthDate: 1955-07-23; <span title=\"Codes: {http://terminology.hl7.org/CodeSystem/v3-MaritalStatus U}\">unmarried</span></a></p><p><b>subscriberId</b>: PFP123450000</p><p><b>beneficiary</b>: <a href=\"Patient-patient1001.html\">Generated Summary: MB: 12345; Eve Betterhalf; Phone: 781-949-4949; gender: female; birthDate: 1955-07-23; <span title=\"Codes: {http://terminology.hl7.org/CodeSystem/v3-MaritalStatus U}\">unmarried</span></a></p><p><b>period</b>: 2021-01-01 --&gt; 2022-01-01</p><p><b>payor</b>: <a href=\"Organization-org1001.html\">Generated Summary: id: ETIN-1001001; active: true; <span title=\"Codes: \">Payer</span>; name: Umbrella Insurance Company; Phone: 860-547-5001</a></p><h3>Classes</h3><table class=\"grid\"><tr><td>-</td><td><b>Type</b></td><td><b>Value</b></td></tr><tr><td>*</td><td><span title=\"Codes: \">Plan</span></td><td>Premim Family Plus</td></tr></table></div>"
          },
          "status": "active",
          "subscriber": {
            "reference": "Patient/patient1001"
          },
          "subscriberId": "PFP123450000",
          "beneficiary": {
            "reference": "Patient/patient1001"
          },
          "period": {
            "start": "2021-01-01",
            "end": "2022-01-01"
          },
          "payor": [
            {
              "reference": "Organization/org1001"
            }
          ],
          "class": [
            {
              "type": {
                "coding": [
                  {
                    "code": "plan",
                    "display": "Plan"
                  }
                ]
              },
              "value": "Premim Family Plus"
            }
          ]
        }
      },
      {
        "fullUrl": "http://example.org/fhir/Location/Provider-Org-Loc-2",
        "resource": {
          "resourceType": "Location",
          "id": "Provider-Org-Loc-2",
          "meta": {
            "profile": [
              "http://hl7.org/fhir/us/davinci-pct/StructureDefinition/davinci-pct-location"
            ]
          },
          "text": {
            "status": "generated",
            "div": "<div xmlns=\"http://www.w3.org/1999/xhtml\"><p><b>Generated Narrative</b></p><p><b>status</b>: active</p><p><b>name</b>: Boston Radiology Center</p><p><b>address</b>: 32 Fruit Street, Boston MA 02114</p><p><b>managingOrganization</b>: <a href=\"Organization-org1002.html\">Generated Summary: Tax ID number: TAX-3211001; active: true; <span title=\"Codes: \">Healthcare Provider</span>; name: Boston Radiology Center; Phone: 781-232-3200</a></p></div>"
          },
          "status": "active",
          "name": "Boston Radiology Center",
          "address": {
            "text": "32 Fruit Street, Boston MA 02114"
          },
          "managingOrganization": {
            "reference": "Organization/org1002"
          }
        }
      }
  ]
}
