{
  "resourceType": "Bundle",
  "fhir_comments": [
    "Collection of resources pertaining to the PCT GFE"
  ],
  "meta": {
    "versionId": "1",
    "lastUpdated": "2021-09-16T12:41:06.458+00:00"
  },
  "identifier": {
    "system": "http://example.org/documentIDs",
    "value": "A12345"
  },
  "type": "collection",
  "timestamp": "2019-08-21T11:01:00+05:00",
  "entry": [
      {
        "fullUrl": "http://example.org/fhir/Patient/patientBSJ1",
        "resource": {
          "resourceType": "Patient",
          "id": "patientBSJ1",
          "text": {
            "status": "generated",
            "div": "<div xmlns=\"http://www.w3.org/1999/xhtml\"><p><b>Generated Narrative</b></p><p><b>name</b>: Betsy Smith-Johnson</p></div>"
          },
          "name": [
            {
              "text": "Betsy Smith-Johnson",
              "family": "Smith-Johnson",
              "given": [
                "Betsy"
              ]
            }
          ]
        }
      },
      {
        "fullUrl": "http://example.org/fhir/Organization/Submitter-Org-1",
        "resource": {
          "resourceType": "Organization",
          "id": "Submitter-Org-1",
          "meta": {
            "profile": [
              "http://hl7.org/fhir/us/davinci-pct/StructureDefinition/davinci-pct-organization"
            ]
          },
          "text": {
            "status": "generated",
            "div": "<div xmlns=\"http://www.w3.org/1999/xhtml\"><p><b>Generated Narrative</b></p><p><b>identifier</b>: Electronic Transmitter Identification Number: ETIN-10010001</p><p><b>active</b>: true</p><p><b>name</b>: GFE Service Help INC.</p></div>"
          },
          "identifier": [
            {
              "type": {
                "coding": [
                  {
                    "system": "http://hl7.org/fhir/us/davinci-pct/CodeSystem/PCTOrgIdentifierTypeCS",
                    "code": "ETIN"
                  }
                ]
              },
              "value": "ETIN-10010001"
            }
          ],
          "active": true,
          "name": "GFE Service Help INC."
        }
      },
      {
        "fullUrl": "http://example.org/fhir/Organization/Insurer-Org-1",
        "resource": {
          "resourceType": "Organization",
          "id": "Insurer-Org-1",
          "meta": {
            "profile": [
              "http://hl7.org/fhir/us/davinci-pct/StructureDefinition/davinci-pct-organization"
            ]
          },
          "text": {
            "status": "generated",
            "div": "<div xmlns=\"http://www.w3.org/1999/xhtml\"><p><b>Generated Narrative</b></p><p><b>identifier</b>: Electronic Transmitter Identification Number: ETIN-70010001</p><p><b>active</b>: true</p><p><b>name</b>: Blue Cross Blue Shield</p></div>"
          },
          "identifier": [
            {
              "type": {
                "coding": [
                  {
                    "system": "http://hl7.org/fhir/us/davinci-pct/CodeSystem/PCTOrgIdentifierTypeCS",
                    "code": "ETIN"
                  }
                ]
              },
              "value": "ETIN-70010001"
            }
          ],
          "active": true,
          "name": "Blue Cross Blue Shield"
        }
      },
      {
        "fullUrl": "http://example.org/fhir/Organization/Provider-Org-1",
        "resource": {
          "resourceType": "Organization",
          "id": "Provider-Org-1",
          "meta": {
            "profile": [
              "http://hl7.org/fhir/us/davinci-pct/StructureDefinition/davinci-pct-organization"
            ]
          },
          "text": {
            "status": "generated",
            "div": "<div xmlns=\"http://www.w3.org/1999/xhtml\"><p><b>Generated Narrative</b></p><p><b>active</b>: true</p><p><b>name</b>: Neuro Care INC.</p></div>"
          },
          "active": true,
          "name": "Neuro Care INC."
        }
      },
      {
        "fullUrl": "http://example.org/fhir/Practitioner/Practitioner-NoraOlogist",
        "resource": {
          "resourceType": "Practitioner",
          "id": "Practitioner-NoraOlogist",
          "text": {
            "status": "generated",
            "div": "<div xmlns=\"http://www.w3.org/1999/xhtml\"><p><b>Generated Narrative</b></p><p><b>identifier</b>: id: 3668788925</p><p><b>active</b>: true</p><p><b>name</b>: Nora Ologist</p><p><b>gender</b>: female</p></div>"
          },
          "identifier": [
            {
              "system": "http://hl7.org/fhir/sid/us-npi",
              "value": "3668788925"
            }
          ],
          "active": true,
          "name": [
            {
              "text": "Nora Ologist",
              "family": "Ologist",
              "given": [
                "Nora"
              ]
            }
          ],
          "gender": "female"
        }
      },
      {
        "fullUrl": "http://example.org/fhir/Location/Provider-Org-Loc-1",
        "resource": {
          "resourceType": "Location",
          "id": "Provider-Org-Loc-1",
          "text": {
            "status": "generated",
            "div": "<div xmlns=\"http://www.w3.org/1999/xhtml\"><p><b>Generated Narrative</b></p><p><b>status</b>: active</p><p><b>name</b>: Neuro Care INC.</p><p><b>address</b>: 26022 Meadowlark Bay, San Antonio, TX 78260</p></div>"
          },
          "status": "active",
          "name": "Neuro Care INC.",
          "address": {
            "text": "26022 Meadowlark Bay, San Antonio, TX 78260"
          }
        }
      },
      {
        "fullUrl": "http://example.org/fhir/PractitionerRole/Provider-Role-neurologist",
        "resource": {
          "resourceType": "PractitionerRole",
          "id": "Provider-Role-neurologist",
          "text": {
            "status": "generated",
            "div": "<div xmlns=\"http://www.w3.org/1999/xhtml\"><p><b>Generated Narrative</b></p><p><b>active</b>: true</p><p><b>practitioner</b>: <a href=\"Practitioner-Practitioner-NoraOlogist.html\">Generated Summary: id: 3668788925; active; Nora Ologist; gender: female</a></p><p><b>organization</b>: <a href=\"Organization-Provider-Org-1.html\">Generated Summary: active; name: Neuro Care INC.</a></p><p><b>code</b>: <span title=\"Codes: {http://nucc.org/provider-taxonomy 2084N0400X}\">Neurology</span></p><p><b>specialty</b>: <span title=\"Codes: {http://nucc.org/provider-taxonomy 2084N0400X}\">Neurology</span></p><p><b>location</b>: <a href=\"Location-Provider-Org-Loc-1.html\">Generated Summary: status: active; name: Neuro Care INC.</a></p></div>"
          },
          "active": true,
          "practitioner": {
            "reference": "Practitioner/Practitioner-NoraOlogist"
          },
          "organization": {
            "reference": "Organization/Provider-Org-1"
          },
          "code": [
            {
              "coding": [
                {
                  "system": "http://nucc.org/provider-taxonomy",
                  "code": "2084N0400X",
                  "display": "Neurology"
                }
              ]
            }
          ],
          "specialty": [
            {
              "coding": [
                {
                  "system": "http://nucc.org/provider-taxonomy",
                  "code": "2084N0400X",
                  "display": "Neurology"
                }
              ]
            }
          ],
          "location": [
            {
              "reference": "Location/Provider-Org-Loc-1"
            }
          ]
        }
      },
      {
        "fullUrl": "http://example.org/fhir/Coverage/BSJ-Coverage-1",
        "resource": {
          "resourceType": "Coverage",
          "id": "BSJ-Coverage-1",
          "text": {
            "status": "generated",
            "div": "<div xmlns=\"http://www.w3.org/1999/xhtml\"><p><b>Generated Narrative</b></p><p><b>status</b>: active</p><p><b>subscriber</b>: <a href=\"Patient-patientBSJ1.html\">Generated Summary: Betsy Smith-Johnson</a></p><p><b>subscriberId</b>: 123456789</p><p><b>beneficiary</b>: <a href=\"Patient-patientBSJ1.html\">Generated Summary: Betsy Smith-Johnson</a></p><p><b>period</b>: 2020-12-01 --&gt; 2021-11-30</p><p><b>payor</b>: <a href=\"Organization-Insurer-Org-1.html\">Generated Summary: Electronic Transmitter Identification Number: ETIN-70010001; active; name: Blue Cross Blue Shield</a></p><h3>Classes</h3><table class=\"grid\"><tr><td>-</td><td><b>Type</b></td><td><b>Value</b></td></tr><tr><td>*</td><td><span title=\"Codes: \">plan</span></td><td>Blue Advantage HMO</td></tr></table></div>"
          },
          "status": "active",
          "subscriber": {
            "reference": "Patient/patientBSJ1"
          },
          "subscriberId": "123456789",
          "beneficiary": {
            "reference": "Patient/patientBSJ1"
          },
          "period": {
            "start": "2020-12-01",
            "end": "2021-11-30"
          },
          "payor": [
            {
              "reference": "Organization/Insurer-Org-1"
            }
          ],
          "class": [
            {
              "type": {
                "coding": [
                  {
                    "code": "plan"
                  }
                ]
              },
              "value": "Blue Advantage HMO"
            }
          ]
        }
      },
      {
        "fullUrl": "http://example.org/fhir/Claim/PCT-Good-Faith-Estimate-1",
        "resource": {
        "resourceType": "Claim",
        "id": "PCT-Good-Faith-Estimate-1",
        "meta": {
          "profile": [
            "http://hl7.org/fhir/us/davinci-pct/StructureDefinition/davinci-pct-gfe"
          ]
        },
        "text": {
          "status": "extensions",
          "div": "<div xmlns=\"http://www.w3.org/1999/xhtml\"><p><b>Generated Narrative</b></p><p><b>GFESubmitter</b>: <a href=\"Organization-Submitter-Org-1.html\">Generated Summary: Electronic Transmitter Identification Number: ETIN-10010001; active; name: GFE Service Help INC.</a></p><p><b>InterTransIdentifier</b>: id: GFEService0001</p><p><b>status</b>: active</p><p><b>type</b>: <span title=\"Codes: {http://terminology.hl7.org/CodeSystem/claim-type institutional}\">Institutional</span></p><p><b>use</b>: predetermination</p><p><b>patient</b>: <a href=\"Patient-patientBSJ1.html\">Generated Summary: Betsy Smith-Johnson</a></p><p><b>created</b>: 2021-09-07</p><p><b>insurer</b>: <a href=\"Organization-Insurer-Org-1.html\">Generated Summary: Electronic Transmitter Identification Number: ETIN-70010001; active; name: Blue Cross Blue Shield</a></p><p><b>provider</b>: <a href=\"PractitionerRole-Provider-Role-neurologist.html\">Generated Summary: active; <span title=\"Codes: {http://nucc.org/provider-taxonomy 2084N0400X}\">Neurology</span>; <span title=\"Codes: {http://nucc.org/provider-taxonomy 2084N0400X}\">Neurology</span></a></p><p><b>priority</b>: <span title=\"Codes: \">normal</span></p><h3>Payees</h3><table class=\"grid\"><tr><td>-</td><td><b>Type</b></td></tr><tr><td>*</td><td><span title=\"Codes: \">subscriber</span></td></tr></table><h3>Insurances</h3><table class=\"grid\"><tr><td>-</td><td><b>Sequence</b></td><td><b>Focal</b></td><td><b>Coverage</b></td></tr><tr><td>*</td><td>1</td><td>true</td><td><a href=\"Coverage-BSJ-Coverage-1.html\">Generated Summary: status: active; subscriberId: 123456789; period: 2020-12-01 --&gt; 2021-11-30</a></td></tr></table></div>"
        },
        "extension": [
          {
            "url": "http://hl7.org/fhir/us/davinci-pct/StructureDefinition/GFESubmitter",
            "valueReference": {
              "reference": "Organization/Submitter-Org-1"
            }
          },
          {
            "url": "http://hl7.org/fhir/us/davinci-pct/StructureDefinition/InterTransIdentifier",
            "valueIdentifier": {
              "value": "GFEService0001"
            }
          }
        ],
        "status": "active",
        "type": {
          "coding": [
            {
              "system": "http://terminology.hl7.org/CodeSystem/claim-type",
              "code": "institutional",
              "display": "Institutional"
            }
          ]
        },
        "use": "predetermination",
        "patient": {
          "reference": "Patient/patientBSJ1"
        },
        "created": "2021-09-07",
        "insurer": {
          "reference": "Organization/Insurer-Org-1"
        },
        "provider": {
          "reference": "PractitionerRole/Provider-Role-neurologist"
        },
        "priority": {
          "coding": [
            {
              "code": "normal"
            }
          ]
        },
        "payee": {
          "type": {
            "coding": [
              {
                "code": "subscriber"
              }
            ]
          }
        },
        "insurance": [
          {
            "sequence": 1,
            "focal": true,
            "coverage": {
              "reference": "Coverage/BSJ-Coverage-1"
            }
          }
        ],
        "total": {
          "value": 600,
          "currency": "USD"
        }
      }
    }
  ]
}
